{
  "standard": "ADaMIG",
  "version": "1.3",
  "datasets": {
    "ADSL": {
      "required_variables": ["STUDYID", "USUBJID", "TRT01A", "SAFFL"]
    },
    "ADAE": {
      "required_variables": ["STUDYID", "USUBJID", "AESEQ", "TRTA", "SAFFL"]
    },
    "ADLB": {
      "required_variables": ["STUDYID", "USUBJID", "LBSEQ", "PARAMCD", "AVAL"]
    }
  },
  "notes": [
    "Starter profile for 1.3. Extend with full metadata constraints."
  ]
}
