{
  "standard": "SDTMIG",
  "version": "3.3",
  "datasets": {
    "DM": {
      "required_variables": ["STUDYID", "USUBJID", "SUBJID", "DOMAIN"]
    },
    "AE": {
      "required_variables": ["STUDYID", "USUBJID", "AESEQ", "AETERM", "AESTDTC"]
    },
    "LB": {
      "required_variables": ["STUDYID", "USUBJID", "LBSEQ", "LBTESTCD", "LBORRES", "LBDTC"]
    },
    "VS": {
      "required_variables": ["STUDYID", "USUBJID", "VSSEQ", "VSTESTCD", "VSORRES", "VSDTC"]
    }
  }
}
