STUDYID,USUBJID,AESEQ,AETERM,TRTA,SAFFL,ASTDT,AENDT
ABC123,ABC123-101-001,1,Headache,Placebo,Y,2026-01-15,2026-01-17
ABC123,ABC123-101-001,2,Nausea,Placebo,Y,2026-01-18,2026-01-20
ABC123,ABC123-101-002,1,Dizziness,DrugA,Y,2026-01-16,2026-01-16
ABC123,ABC123-102-003,1,Fatigue,DrugA,Y,2026-01-22,2026-01-25
ABC123,ABC123-102-004,1,Rash,Placebo,Y,2026-01-21,2026-01-24
