STUDYID,DOMAIN,USUBJID,AESEQ,AETERM,AESTDTC,AEENDTC,AESEV,AESER
ABC123,AE,ABC123-101-001,1,Headache,2026-01-15,2026-01-17,MILD,N
ABC123,AE,ABC123-101-001,2,Nausea,2026-01-18,2026-01-20,MODERATE,N
ABC123,AE,ABC123-101-002,1,Dizziness,2026-01-16,2026-01-16,MILD,N
ABC123,AE,ABC123-102-003,1,Fatigue,2026-01-22,2026-01-25,SEVERE,Y
ABC123,AE,ABC123-102-004,1,Rash,2026-01-21,2026-01-24,MODERATE,N
