STUDYID,DOMAIN,USUBJID,SUBJID,SITEID,SEX,RACE,BRTHDTC,ARM,RFSTDTC
ABC123,DM,ABC123-101-001,001,101,M,ASIAN,1980-05-11,Placebo,2026-01-10
ABC123,DM,ABC123-101-002,002,101,F,WHITE,1975-09-20,DrugA,2026-01-12
ABC123,DM,ABC123-102-003,003,102,F,BLACK OR AFRICAN AMERICAN,1990-03-01,DrugA,2026-01-15
ABC123,DM,ABC123-102-004,004,102,M,WHITE,1988-12-24,Placebo,2026-01-18
