STUDYID,DOMAIN,USUBJID,LBSEQ,LBTESTCD,LBORRES,LBDTC
ABC123,LB,ABC123-101-001,1,HGB,13.2,2026-01-14
ABC123,LB,ABC123-101-002,1,HGB,12.1,2026-01-14
ABC123,LB,ABC123-102-003,1,HGB,11.8,2026-01-15
ABC123,LB,ABC123-102-004,1,HGB,14.0,2026-01-16
