STUDYID,DOMAIN,USUBJID,VSSEQ,VSTESTCD,VSORRES,VSDTC
ABC123,VS,ABC123-101-001,1,SYSBP,121,2026-01-14
ABC123,VS,ABC123-101-002,1,SYSBP,128,2026-01-14
ABC123,VS,ABC123-102-003,1,SYSBP,117,2026-01-15
ABC123,VS,ABC123-102-004,1,SYSBP,130,2026-01-16
