STUDYID,SITEID,SUBJID,USUBJID,SEX,RACE,BRTHDTC,RANDDTC,ARM
ABC123,101,001,ABC123-101-001,M,ASIAN,1980-05-11,2026-01-10,Placebo
ABC123,101,002,ABC123-101-002,F,WHITE,1975-09-20,2026-01-12,DrugA
ABC123,102,003,ABC123-102-003,F,BLACK OR AFRICAN AMERICAN,1990-03-01,2026-01-15,DrugA
ABC123,102,004,ABC123-102-004,M,WHITE,1988-12-24,2026-01-18,Placebo
